#[FileName]
##
#FileName=
#[FileName]
##
#Scan_FileName=C:\Documents and Settings\Nanospectrometr\Мои документы\Лабораторные работы\v3436\06_hg.arc_data
## *** Note this is the base FileName and may not be the final Scan_FileName
#Routine_FileName= "Not Saved"
#Type=SinglePoint
#TimeStamp=21.11.2016 17:02:33
##
#[NCL]
##
#Serial=210436
#Model=Spectra-Hub1
#WaveUnits=nm
#routine=ScanMono1
#Mono1Use=Active
#Mono1Serial=25580345
#Mono2Use=none
#Ch1Use=Active
#Ch2Use=none
#Ch3Use=none
#Shutter1Use=none
#Shutter2Use=none
#FilterUse=none
#FilterUse2=none
##
#[NCL_Acquisition]
##
#IntegrationTime=200
#IntegrationTime_Units=milliSeconds
#Storage=postFixed
#Operator=
#DataCalc=ch1
#Data_Channel_Num=1
#RefCalc=ch1
#Readings_per_Point=2
#DarkReading=0
#Cycles=1
#Cycle_Delay=0
#Cycle_Delay_Units=milliSeconds
##
#[NCL_Acquisition_Mono1]
##
#Start_nm=400.0000
#Start_(nm)=400.0000
#Stop_nm=800.0000
#Stop_nm(nm)=800.0000
#Increment=1.0000
#Increment_(nm)=1.0000
#PauseAfterMove=0
#PostMoveSettleTime=0
#Backwards_Scan=false
##
#[NCL_Triggers]
##
#InputTriggerOn=0
#InputTriggerOn_Str=false
#OutputTriggerOn=0
#OutputTriggerOn_Str=false
##
#[NCL_Ch1]
##
#Units=Pico Amps
#Unit_Index=2
#Type=SiDiode
#Mode=current
#Gain=2
#unipolar=0
##
#[SR510_LockIn]
##
#SR510_Present=0
##
#[NCL_Mono1]
##
#Model=SP-2-500i
#Serial=25580345
#Grating=2
#Grating_Density=1200
#Grating_Blaze=500nm
#Use_Band_Pass_Slits=0
#Entry_Index=1
#Entry=side
#EntryType=Manual Slit
#EntryWidth=0
#EntryWidth_units=microns
#Exit_Index=4
#Exit=side
#ExitType=Manual Slit
#ExitWidth=0
#ExitWidth_units=microns
#Use_BandPass_Slit=0
#
#Wavelength	         Reading
#

  400.0000	            38458
  401.0000	            38501
  402.0000	            38630
  403.0000	            38453
  404.0000	            38493
  405.0000	            38463
  406.0000	            38481
  407.0000	            38528
  408.0000	            38569
  409.0000	            38584
  410.0000	            38750
  411.0000	            39415
  412.0000	            39713
  413.0000	            39849
  414.0000	            39929
  415.0000	            39734
  416.0000	            39697
  417.0000	            39522
  418.0000	            39121
  419.0000	            38350
  420.0000	            37884
  421.0000	            37804
  422.0000	            37807
  423.0000	            37845
  424.0000	            37883
  425.0000	            37814
  426.0000	            37789
  427.0000	            37965
  428.0000	            38239
  429.0000	            38129
  430.0000	            38245
  431.0000	            38290
  432.0000	            38335
  433.0000	            38357
  434.0000	            38311
  435.0000	            38245
  436.0000	            38328
  437.0000	            38268
  438.0000	            38205
  439.0000	            38273
  440.0000	            38207
  441.0000	            37984
  442.0000	            37896
  443.0000	            37973
  444.0000	            38007
  445.0000	            37872
  446.0000	            37862
  447.0000	            37859
  448.0000	            37912
  449.0000	            37908
  450.0000	            37912
  451.0000	            37880
  452.0000	            37958
  453.0000	            37962
  454.0000	            37905
  455.0000	            37849
  456.0000	            37786
  457.0000	            37836
  458.0000	            37735
  459.0000	            37807
  460.0000	            37611
  461.0000	            37633
  462.0000	            37634
  463.0000	            37576
  464.0000	            37539
  465.0000	            37449
  466.0000	            37450
  467.0000	            37425
  468.0000	            37443
  469.0000	            37474
  470.0000	            37482
  471.0000	            37412
  472.0000	            37341
  473.0000	            37491
  474.0000	            37569
  475.0000	            37912
  476.0000	            37969
  477.0000	            37997
  478.0000	            37955
  479.0000	            38039
  480.0000	            38648
  481.0000	            39209
  482.0000	            39638
  483.0000	            39777
  484.0000	            39897
  485.0000	            40008
  486.0000	            40092
  487.0000	            40103
  488.0000	            40178
  489.0000	            39931
  490.0000	            39595
  491.0000	            39531
  492.0000	            39505
  493.0000	            39508
  494.0000	            39498
  495.0000	            39591
  496.0000	            39541
  497.0000	            39468
  498.0000	            39455
  499.0000	            39552
  500.0000	            39564
  501.0000	            39636
  502.0000	            39661
  503.0000	            39685
  504.0000	            39686
  505.0000	            39713
  506.0000	            39765
  507.0000	            39757
  508.0000	            39703
  509.0000	            39588
  510.0000	            39510
  511.0000	            39536
  512.0000	            39572
  513.0000	            39593
  514.0000	            39590
  515.0000	            39676
  516.0000	            39611
  517.0000	            39570
  518.0000	            39612
  519.0000	            39590
  520.0000	            39669
  521.0000	            39570
  522.0000	            39553
  523.0000	            39512
  524.0000	            39545
  525.0000	            39603
  526.0000	            39562
  527.0000	            39639
  528.0000	            39504
  529.0000	            39482
  530.0000	            39443
  531.0000	            39547
  532.0000	            39641
  533.0000	            39676
  534.0000	            39837
  535.0000	            40064
  536.0000	            40008
  537.0000	            39989
  538.0000	            39970
  539.0000	            39973
  540.0000	            39897
  541.0000	            39853
  542.0000	            39775
  543.0000	            39764
  544.0000	            39702
  545.0000	            39633
  546.0000	            40179
  547.0000	            39748
  548.0000	            39828
  549.0000	            39812
  550.0000	            39769
  551.0000	            39626
  552.0000	            39698
  553.0000	            39685
  554.0000	            39735
  555.0000	            39810
  556.0000	            39809
  557.0000	            39757
  558.0000	            39685
  559.0000	            39770
  560.0000	            39829
  561.0000	            39975
  562.0000	            40213
  563.0000	            40171
  564.0000	            39955
  565.0000	            39690
  566.0000	            39435
  567.0000	            39446
  568.0000	            39409
  569.0000	            39430
  570.0000	            39407
  571.0000	            39321
  572.0000	            39289
  573.0000	            39424
  574.0000	            39561
  575.0000	            39438
  576.0000	            39455
  577.0000	            39448
  578.0000	            39506
  579.0000	            39632
  580.0000	            39530
  581.0000	            39455
  582.0000	            39434
  583.0000	            39427
  584.0000	            39416
  585.0000	            39423
  586.0000	            39373
  587.0000	            39367
  588.0000	            39393
  589.0000	            39365
  590.0000	            39286
  591.0000	            39357
  592.0000	            39339
  593.0000	            39398
  594.0000	            39355
  595.0000	            39394
  596.0000	            39514
  597.0000	            39488
  598.0000	            39415
  599.0000	            39321
  600.0000	            39357
  601.0000	            39349
  602.0000	            39386
  603.0000	            39392
  604.0000	            39399
  605.0000	            39460
  606.0000	            39419
  607.0000	            39413
  608.0000	            39272
  609.0000	            39532
  610.0000	            39783
  611.0000	            39989
  612.0000	            39907
  613.0000	            39887
  614.0000	            39911
  615.0000	            39962
  616.0000	            39958
  617.0000	            39908
  618.0000	            39954
  619.0000	            39908
  620.0000	            39857
  621.0000	            39789
  622.0000	            39772
  623.0000	            39826
  624.0000	            39784
  625.0000	            39686
  626.0000	            39464
  627.0000	            39448
  628.0000	            39294
  629.0000	            39180
  630.0000	            38782
  631.0000	            38100
  632.0000	            37296
  633.0000	            34113
  634.0000	            31023
  635.0000	            30039
  636.0000	            30577
  637.0000	            32010
  638.0000	            32855
  639.0000	            33040
  640.0000	            33010
  641.0000	            33163
  642.0000	            33205
  643.0000	            33203
  644.0000	            33503
  645.0000	            34247
  646.0000	            36259
  647.0000	            37415
  648.0000	            37779
  649.0000	            38397
  650.0000	            38548
  651.0000	            38677
  652.0000	            38684
  653.0000	            38640
  654.0000	            38675
  655.0000	            38657
  656.0000	            38614
  657.0000	            38538
  658.0000	            38718
  659.0000	            38797
  660.0000	            38801
  661.0000	            38715
  662.0000	            38663
  663.0000	            38522
  664.0000	            38437
  665.0000	            38357
  666.0000	            38269
  667.0000	            38388
  668.0000	            38445
  669.0000	            38432
  670.0000	            38439
  671.0000	            38343
  672.0000	            38479
  673.0000	            38497
  674.0000	            38525
  675.0000	            38451
  676.0000	            38448
  677.0000	            38542
  678.0000	            38547
  679.0000	            38492
  680.0000	            38528
  681.0000	            38545
  682.0000	            38489
  683.0000	            38455
  684.0000	            38436
  685.0000	            38466
  686.0000	            38529
  687.0000	            38501
  688.0000	            38430
  689.0000	            38509
  690.0000	            38533
  691.0000	            38451
  692.0000	            38267
  693.0000	            38195
  694.0000	            38252
  695.0000	            38236
  696.0000	            38253
  697.0000	            38252
  698.0000	            38293
  699.0000	            38252
  700.0000	            38288
  701.0000	            38340
  702.0000	            38266
  703.0000	            38442
  704.0000	            38509
  705.0000	            38555
  706.0000	            38691
  707.0000	            38750
  708.0000	            38854
  709.0000	            38937
  710.0000	            38888
  711.0000	            38933
  712.0000	            38787
  713.0000	            38789
  714.0000	            38808
  715.0000	            38814
  716.0000	            38771
  717.0000	            38899
  718.0000	            38865
  719.0000	            38856
  720.0000	            38755
  721.0000	            38796
  722.0000	            38785
  723.0000	            38800
  724.0000	            38677
  725.0000	            38675
  726.0000	            38696
  727.0000	            38788
  728.0000	            38794
  729.0000	            38721
  730.0000	            38719
  731.0000	            38750
  732.0000	            38797
  733.0000	            38738
  734.0000	            38767
  735.0000	            38769
  736.0000	            38807
  737.0000	            38726
  738.0000	            38702
  739.0000	            38734
  740.0000	            38689
  741.0000	            38669
  742.0000	            38674
  743.0000	            38711
  744.0000	            38715
  745.0000	            38677
  746.0000	            38696
  747.0000	            38725
  748.0000	            38841
  749.0000	            38865
  750.0000	            38816
  751.0000	            38756
  752.0000	            38738
  753.0000	            38757
  754.0000	            38657
  755.0000	            38584
  756.0000	            38783
  757.0000	            38742
  758.0000	            38772
  759.0000	            38671
  760.0000	            38626
  761.0000	            38726
  762.0000	            38723
  763.0000	            38702
  764.0000	            38532
  765.0000	            38478
  766.0000	            38701
  767.0000	            38628
  768.0000	            38577
  769.0000	            38513
  770.0000	            38430
  771.0000	            38502
  772.0000	            38562
  773.0000	            38718
  774.0000	            38774
  775.0000	            38686
  776.0000	            38653
  777.0000	            38643
  778.0000	            38664
  779.0000	            38732
  780.0000	            38713
  781.0000	            38756
  782.0000	            38713
  783.0000	            38805
  784.0000	            38693
  785.0000	            38751
  786.0000	            38749
  787.0000	            38615
  788.0000	            38675
  789.0000	            38682
  790.0000	            38609
  791.0000	            38604
  792.0000	            38688
  793.0000	            38673
  794.0000	            38690
  795.0000	            38582
  796.0000	            38525
  797.0000	            38593
  798.0000	            38521
  799.0000	            38492
  800.0000	            38561
